File: CME502_Project_Gauer/testfile.pdid.txt
Filename:	C:\Program Files\Pyris\Data\Elena S\DSC 10-30\pla_ori_1030.pdid.pdid
Operator ID:
Sample ID:	PLA
Comment: 	pla_ori_1031 run 2
Serial Number:	536N7042301
Data Collected:	10/31/2023 11:33:23 AM
Sample Weight:	19.900 mg
Display Weight:	19.900
Validation
Validated:	No
By:
Date:
Calibration Information
Filename:	C:\Program Files\Pyris\Calibrations\05-25-2023_DiamDSC_He-Cryo_1.pdic
Date/Time:
Initial Conditions
Temperature:	 0.00 °C
Y Initial:	20.00 mW
Sample Rate:	Fast
Baseline Filename:	C:\Program Files\Pyris\Data\Elena S\DSC 10-30\backgr2_1030.pdid.pdid
End Condition:	Go To Load
Total Points in Run:	3479
Method Steps:
Pre-Run Actions
Start the Run
	Action occurs Immediately
Switch the Gas to Helium at 20.0 ml/min
	Action occurs Immediately
1)	Hold for 1.0 min at 0.00°C

2)	Heat from 0.00°C to 220.00°C at 5.00°C/min

3)	Hold for 1.0 min at 220.00°C

4)	Cool from 220.00°C to 0.00°C at 20.00°C/min

5)	Hold for 1.0 min at 0.00°C

1) Diamond DSC Isothermal
	Time     	Unsubtracted	Baseline     	Program     	Sample     	Approx.     	Heat Flow
	          	Heat Flow     	Heat Flow     	Temperature	Temperature	Gas Flow     	Calibration
	0.000000	0.699589	0.000000	0.000000	36.363	0.000000	1.170320
	0.016667	0.796024	0.000000	0.000000	36.221	0.000000	1.170320
	0.033333	0.894916	0.000000	0.000000	36.089	0.000000	1.170320
	0.050000	0.993808	0.000000	0.000000	35.963	0.000000	1.170320
	0.066667	1.091647	0.000000	0.000000	35.841	0.000000	1.170320
	0.083333	1.187964	0.000000	0.000000	35.725	0.000000	1.170320
	0.100000	1.283111	0.000000	0.000000	35.611	0.000000	1.170320
	0.116667	1.374747	0.000000	0.000000	35.507	0.000000	1.170320
	0.133333	1.461702	0.000000	0.000000	35.405	0.000000	1.170320
	0.150000	1.544209	0.000000	0.000000	35.308	0.000000	1.170320
	0.166667	1.622855	0.000000	0.000000	35.215	0.000000	1.170320
	0.183333	1.696702	0.000000	0.000000	35.125	0.000000	1.170320
	0.200000	1.767506	0.000000	0.000000	35.042	0.000000	1.170320
	0.216667	1.833746	0.000000	0.000000	34.96	0.000000	1.170320
	0.233333	1.896007	0.000000	0.000000	34.881	0.000000	1.170320
	0.250000	1.954289	0.000000	0.000000	34.807	0.000000	1.170320
	0.266667	2.008592	0.000000	0.000000	34.735	0.000000	1.170320
	0.283333	2.060086	0.000000	0.000000	34.665	0.000000	1.170320
	0.300000	2.108537	0.000000	0.000000	34.602	0.000000	1.170320
	0.316667	2.153829	0.000000	0.000000	34.544	0.000000	1.170320
	0.333333	2.196545	0.000000	0.000000	34.479	0.000000	1.170320
	0.350000	2.237038	0.000000	0.000000	34.428	0.000000	1.170320
	0.366667	2.275425	0.000000	0.000000	34.373	0.000000	1.170320
	0.383333	2.311588	0.000000	0.000000	34.321	0.000000	1.170320
	0.400000	2.345527	0.000000	0.000000	34.272	0.000000	1.170320
	0.416667	2.378062	0.000000	0.000000	34.225	0.000000	1.170320
	0.433333	2.408841	0.000000	0.000000	34.177	0.000000	1.170320
	0.450000	2.437982	0.000000	0.000000	34.137	0.000000	1.170320
	0.466667	2.465719	0.000000	0.000000	34.095	0.000000	1.170320
	0.483333	2.492051	0.000000	0.000000	34.054	0.000000	1.170320
	0.500000	2.517096	0.000000	0.000000	34.017	0.000000	1.170320
	0.516667	2.540853	0.000000	0.000000	33.978	0.000000	1.170320
	0.533333	2.563557	0.000000	0.000000	33.944	0.000000	1.170320
	0.550000	2.585091	0.000000	0.000000	33.908	0.000000	1.170320
	0.566667	2.605572	0.000000	0.000000	33.877	0.000000	1.170320
	0.583333	2.625116	0.000000	0.000000	33.846	0.000000	1.170320
	0.600000	2.643607	0.000000	0.000000	33.815	0.000000	1.170320
	0.616667	2.661279	0.000000	0.000000	33.791	0.000000	1.170320
	0.633333	2.678249	0.000000	0.000000	33.763	0.000000	1.170320
	0.650000	2.694282	0.000000	0.000000	33.737	0.000000	1.170320
	0.666667	2.709496	0.000000	0.000000	33.712	0.000000	1.170320
	0.683333	2.724008	0.000000	0.000000	33.688	0.000000	1.170320
	0.700000	2.737935	0.000000	0.000000	33.666	0.000000	1.170320
	0.716667	2.751160	0.000000	0.000000	33.644	0.000000	1.170320
	0.733333	2.763799	0.000000	0.000000	33.625	0.000000	1.170320
	0.750000	2.775736	0.000000	0.000000	33.604	0.000000	1.170320
	0.766667	2.787323	0.000000	0.000000	33.583	0.000000	1.170320
	0.783333	2.798324	0.000000	0.000000	33.565	0.000000	1.170320
	0.800000	2.808739	0.000000	0.000000	33.552	0.000000	1.170320
	0.816667	2.818687	0.000000	0.000000	33.531	0.000000	1.170320
	0.833333	2.828284	0.000000	0.000000	33.516	0.000000	1.170320
	0.850000	2.837295	0.000000	0.000000	33.499	0.000000	1.170320
	0.866667	2.845839	0.000000	0.000000	33.485	0.000000	1.170320
	0.883333	2.854148	0.000000	0.000000	33.474	0.000000	1.170320
	0.900000	2.861989	0.000000	0.000000	33.454	0.000000	1.170320
	0.916667	2.869479	0.000000	0.000000	33.443	0.000000	1.170320
	0.933333	2.876735	0.000000	0.000000	33.431	0.000000	1.170320
	0.950000	2.883523	0.000000	0.000000	33.419	0.000000	1.170320
	0.966667	2.890194	0.000000	0.000000	33.408	0.000000	1.170320
	0.983333	2.896513	0.000000	0.000000	33.396	0.000000	1.170320
2) Diamond DSC Temperature Scan
	1.000000	2.891130	0.000000	0.004000	33.385	0.000000	1.170320
	1.066667	2.900258	-0.139385	0.337000	33.347	0.000000	1.170320
	1.133333	2.903886	-0.297729	0.670000	33.313	0.000000	1.170320
	1.200000	2.903535	-0.434657	1.004000	33.284	0.000000	1.170320
	1.266667	2.900141	-0.551572	1.337000	33.259	0.000000	1.170320
	1.333333	2.894875	-0.651868	1.670000	33.236	0.000000	1.170320
	1.400000	2.887736	-0.739759	2.004000	33.216	0.000000	1.170320
	1.466667	2.878959	2.156665	2.337000	33.201	0.000000	1.170320
	1.533333	2.869011	0.764336	2.670000	33.186	0.000000	1.170320
	1.600000	2.858127	0.103924	3.004000	33.172	0.000000	1.170320
	1.666667	2.846658	-0.228797	3.337000	33.157	0.000000	1.170320
	1.733333	2.834369	-0.436295	3.670000	33.145	0.000000	1.170320
	1.800000	2.821730	-0.600959	4.004000	33.139	0.000000	1.170320
	1.866667	2.808388	-0.741749	4.337000	33.126	0.000000	1.170320
	1.933333	2.794696	-0.863462	4.670000	33.119	0.000000	1.170320
	2.000000	2.780652	-0.970312	5.004000	33.112	0.000000	1.170320
	2.066667	2.766374	-1.062884	5.337000	33.106	0.000000	1.170320
	2.133333	2.751862	-1.142700	5.670000	33.091	0.000000	1.170320
	2.200000	2.736999	-1.209876	6.004000	33.087	0.000000	1.170320
	2.266667	2.722019	-1.264998	6.337000	33.082	0.000000	1.170320
	2.333333	2.707156	-1.306662	6.670000	33.072	0.000000	1.170320
	2.400000	2.691590	-1.334398	7.004000	33.068	0.000000	1.170320
	2.466667	5.856017	-1.346453	7.337000	33.066	0.000000	1.170320
	2.533333	4.639002	-1.340016	7.670000	33.072	0.000000	1.170320
	2.600000	3.999071	-1.311928	8.004000	33.095	0.000000	1.170320
	2.666667	3.760326	-1.259498	8.337000	33.116	0.000000	1.170320
	2.733333	3.667754	-1.182374	8.670000	33.144	0.000000	1.170320
	2.800000	3.620122	-1.086525	9.004000	33.185	0.000000	1.170320
	2.866667	3.587470	-0.982717	9.337000	33.231	0.000000	1.170320
	2.933333	3.560319	-0.881368	9.670000	33.278	0.000000	1.170320
	3.000000	3.535157	-0.789615	10.004	33.339	0.000000	1.170320
	3.066667	3.510112	-0.710618	10.337	33.403	0.000000	1.170320
	3.133333	3.484482	-0.645080	10.67	33.473	0.000000	1.170320
	3.200000	3.457096	-0.591714	11.004	33.547	0.000000	1.170320
	3.266667	3.428190	-0.549348	11.337	33.626	0.000000	1.170320
	3.333333	3.397293	-0.515994	11.67	33.702	0.000000	1.170320
	3.400000	3.364290	-0.490832	12.004	33.787	0.000000	1.170320
	3.466667	3.328478	-0.471990	12.337	33.872	0.000000	1.170320
	3.533333	3.289858	-0.458648	12.67	33.957	0.000000	1.170320
	3.600000	3.248194	-0.449754	13.004	34.04	0.000000	1.170320
	3.666667	3.203488	-0.444136	13.337	34.117	0.000000	1.170320
	3.733333	3.156558	-0.619801	13.67	34.19	0.000000	1.170320
	3.800000	3.108107	-3.403172	14.004	34.26	0.000000	1.170320
	3.866667	3.060241	-4.271900	14.337	34.32	0.000000	1.170320
	3.933333	3.015067	-4.436447	14.67	34.373	0.000000	1.170320
	4.000000	2.972701	-4.451193	15.004	34.412	0.000000	1.170320
	4.066667	2.934432	-4.435862	15.337	34.45	0.000000	1.170320
	4.133333	2.900024	-4.410466	15.67	34.479	0.000000	1.170320
	4.200000	2.869011	-4.383198	16.004	34.502	0.000000	1.170320
	4.266667	2.840572	-4.354876	16.337	34.522	0.000000	1.170320
	4.333333	2.814942	-4.327491	16.67	34.535	0.000000	1.170320
	4.400000	2.791419	-4.297296	17.004	34.546	0.000000	1.170320
	4.466667	2.769534	-4.265581	17.337	34.556	0.000000	1.170320
	4.533333	2.749521	-4.230471	17.67	34.557	0.000000	1.170320
	4.600000	2.730211	-4.196766	18.004	34.566	0.000000	1.170320
	4.666667	2.712071	-4.162007	18.337	34.57	0.000000	1.170320
	4.733333	2.958189	-4.132398	18.67	34.574	0.000000	1.170320
	4.800000	3.003129	-4.099161	19.004	34.746	0.000000	1.170320
	4.866667	3.123672	-4.067446	19.337	35.038	0.000000	1.170320
	4.933333	3.110565	-4.031166	19.67	35.354	0.000000	1.170320
	5.000000	3.032504	-3.997343	20.004	35.679	0.000000	1.170320
	5.066667	2.938294	-3.961181	20.337	36.009	0.000000	1.170320
	5.133333	2.840572	-3.928646	20.67	36.343	0.000000	1.170320
	5.200000	2.742499	-3.893068	21.004	36.674	0.000000	1.170320
	5.266667	2.644075	-3.859129	21.337	37.006	0.000000	1.170320
	5.333333	2.544949	-3.823551	21.67	37.342	0.000000	1.170320
	5.400000	2.445706	-3.786920	22.004	37.675	0.000000	1.170320
	5.466667	2.346229	-3.747714	22.337	38.01	0.000000	1.170320
	5.533333	2.246518	-3.713307	22.67	38.343	0.000000	1.170320
	5.600000	2.146456	-3.679602	23.004	38.685	0.000000	1.170320
	5.666667	2.046978	-3.648354	23.337	39.017	0.000000	1.170320
	5.733333	1.946097	-3.612308	23.67	39.361	0.000000	1.170320
	5.800000	1.845449	-3.577316	24.004	39.697	0.000000	1.170320
	5.866667	1.743397	-3.540802	24.337	40.037	0.000000	1.170320
	5.933333	1.641931	-3.507448	24.67	40.374	0.000000	1.170320
	6.000000	1.540113	-3.474211	25.004	40.715	0.000000	1.170320
	6.066667	1.438178	-3.438282	25.337	41.057	0.000000	1.170320
	6.133333	1.335424	-3.401066	25.67	41.4	0.000000	1.170320
	6.200000	1.233255	-3.366073	26.004	41.737	0.000000	1.170320
	6.266667	1.130735	-3.331432	26.337	42.08	0.000000	1.170320
	6.333333	1.029151	-3.299950	26.67	42.422	0.000000	1.170320
	6.400000	0.926983	-3.265426	27.004	42.766	0.000000	1.170320
	6.466667	0.825282	-3.231018	27.337	43.107	0.000000	1.170320
	6.533333	0.722996	-3.192983	27.67	43.45	0.000000	1.170320
	6.600000	0.620944	-3.157990	28.004	43.792	0.000000	1.170320
	6.666667	0.519009	-3.125104	28.337	44.135	0.000000	1.170320
	6.733333	0.418596	-3.093740	28.67	44.481	0.000000	1.170320
	6.800000	0.317948	-3.060503	29.004	44.826	0.000000	1.170320
	6.866667	0.218354	-3.024457	29.337	45.169	0.000000	1.170320
	6.933333	0.119345	-2.987943	29.67	45.515	0.000000	1.170320
	7.000000	0.021857	-2.953769	30.004	45.862	0.000000	1.170320
	7.066667	-0.073758	-2.921703	30.337	46.204	0.000000	1.170320
	7.133333	-0.167734	-2.885306	30.67	46.552	0.000000	1.170320
	7.200000	-0.258902	-2.851250	31.004	46.898	0.000000	1.170320
	7.266667	-0.347378	-2.815204	31.337	47.245	0.000000	1.170320
	7.333333	-0.430354	-2.782669	31.67	47.592	0.000000	1.170320
	7.400000	-0.507244	-2.747793	32.004	47.941	0.000000	1.170320
	7.466667	-0.576176	-2.713737	32.337	48.286	0.000000	1.170320
	7.533333	-0.633404	-2.680500	32.67	48.633	0.000000	1.170320
	7.600000	-0.674600	-2.646795	33.004	48.981	0.000000	1.170320
	7.666667	-0.694729	-2.611100	33.337	49.326	0.000000	1.170320
	7.733333	-0.683494	-2.579033	33.67	49.674	0.000000	1.170320
	7.800000	-0.625563	-2.545913	34.004	50.025	0.000000	1.170320
	7.866667	-0.505606	-2.512559	34.337	50.372	0.000000	1.170320
	7.933333	-0.305013	-2.481311	34.67	50.717	0.000000	1.170320
	8.000000	-0.020859	-2.447489	35.004	51.07	0.000000	1.170320
	8.066667	0.298053	-2.409337	35.337	51.416	0.000000	1.170320
	8.133333	0.556108	-2.374227	35.67	51.761	0.000000	1.170320
	8.200000	0.658511	-2.341107	36.004	52.114	0.000000	1.170320
	8.266667	0.588409	-2.309509	36.337	52.46	0.000000	1.170320
	8.333333	0.399871	-2.278495	36.67	52.807	0.000000	1.170320
	8.400000	0.153167	-2.246779	37.004	53.158	0.000000	1.170320
	8.466667	-0.124667	-2.213542	37.337	53.508	0.000000	1.170320
	8.533333	-0.428130	-2.178901	37.67	53.858	0.000000	1.170320
	8.600000	-0.757575	-2.145547	38.004	54.205	0.000000	1.170320
	8.666667	-1.097202	-2.112661	38.337	54.557	0.000000	1.170320
	8.733333	-1.512783	-2.081998	38.67	54.905	0.000000	1.170320
	8.800000	-1.812501	-2.050634	39.004	55.256	0.000000	1.170320
	8.866667	-2.083430	-2.011896	39.337	55.609	0.000000	1.170320
	8.933333	-2.308834	-1.978542	39.67	55.956	0.000000	1.170320
	9.000000	-2.480403	-1.947646	40.004	56.306	0.000000	1.170320
	9.066667	-2.620958	-1.916983	40.337	56.656	0.000000	1.170320
	9.133333	-2.749108	-1.887725	40.67	57.006	0.000000	1.170320
	9.200000	-2.874917	-1.856595	41.004	57.356	0.000000	1.170320
	9.266667	-3.002599	-1.826167	41.337	57.705	0.000000	1.170320
	9.333333	-3.133441	-1.796675	41.67	58.056	0.000000	1.170320
	9.400000	-3.267209	-1.764725	42.004	58.409	0.000000	1.170320
	9.466667	-3.400859	-1.733126	42.337	58.76	0.000000	1.170320
	9.533333	-3.533456	-1.702347	42.67	59.109	0.000000	1.170320
	9.600000	-3.663830	-1.671801	43.004	59.46	0.000000	1.170320
	9.666667	-3.792916	-1.640320	43.337	59.809	0.000000	1.170320
	9.733333	-3.920013	-1.610243	43.67	60.162	0.000000	1.170320
	9.800000	-4.047461	-1.579931	44.004	60.51	0.000000	1.170320
	9.866667	-4.174323	-1.551844	44.337	60.864	0.000000	1.170320
	9.933333	-4.302473	-1.521767	44.67	61.215	0.000000	1.170320
	10	-4.430974	-1.491689	45.004	61.566	0.000000	1.170320
	10.0667	-4.559827	-1.463133	45.337	61.915	0.000000	1.170320
	10.1333	-4.689264	-1.432705	45.67	62.266	0.000000	1.170320
	10.2	-4.819403	-1.404266	46.004	62.62	0.000000	1.170320
	10.2667	-4.949075	-1.375945	46.337	62.969	0.000000	1.170320
	10.3333	-5.078863	-1.346570	46.67	63.322	0.000000	1.170320
	10.4	-5.211577	-1.313801	47.004	63.671	0.000000	1.170320
	10.4667	-5.345228	-1.282085	47.337	64.027	0.000000	1.170320
	10.5333	-5.478410	-1.253997	47.67	64.379	0.000000	1.170320
	10.6	-5.611827	-1.224856	48.004	64.729	0.000000	1.170320
	10.6667	-5.744541	-1.199578	48.337	65.08	0.000000	1.170320
	10.7333	-5.877723	-1.174533	48.67	65.433	0.000000	1.170320
	10.8	-6.010906	-1.146445	49.004	65.785	0.000000	1.170320
	10.8667	-6.146195	-1.117538	49.337	66.14	0.000000	1.170320
	10.9333	-6.281133	-1.089099	49.67	66.489	0.000000	1.170320
	11	-6.416890	-1.062416	50.004	66.844	0.000000	1.170320
	11.0667	-6.551242	-1.039010	50.337	67.194	0.000000	1.170320
	11.1333	-6.687467	-1.011624	50.67	67.547	0.000000	1.170320
	11.2	-6.825331	-0.980845	51.004	67.897	0.000000	1.170320
	11.2667	-6.963429	-0.951002	51.337	68.251	0.000000	1.170320
	11.3333	-7.101995	-0.924201	51.67	68.6	0.000000	1.170320
	11.4	-7.240326	-0.900444	52.004	68.955	0.000000	1.170320
	11.4667	-7.378307	-0.877037	52.337	69.305	0.000000	1.170320
	11.5333	-7.518628	-0.849067	52.67	69.659	0.000000	1.170320
	11.6	-7.659301	-0.820745	53.004	70.009	0.000000	1.170320
	11.6667	-7.799973	-0.796754	53.337	70.362	0.000000	1.170320
	11.7333	-7.940060	-0.776741	53.67	70.716	0.000000	1.170320
	11.8	-8.081318	-0.751579	54.004	71.065	0.000000	1.170320
	11.8667	-8.222576	-0.727822	54.337	71.42	0.000000	1.170320
	11.9333	-8.365472	-0.704766	54.67	71.771	0.000000	1.170320
	12	-8.511410	-0.675040	55.004	72.122	0.000000	1.170320
	12.0667	-8.656998	-0.648942	55.337	72.48	0.000000	1.170320
	12.1333	-8.803171	-0.623897	55.67	72.832	0.000000	1.170320
	12.2	-8.949227	-0.599555	56.004	73.182	0.000000	1.170320
	12.2667	-9.094230	-0.577319	56.337	73.537	0.000000	1.170320
	12.3333	-9.241690	-0.554380	56.67	73.887	0.000000	1.170320
	12.4	-9.391257	-0.529101	57.004	74.245	0.000000	1.170320
	12.4667	-9.546909	-0.506046	57.337	74.595	0.000000	1.170320
	12.5333	-9.753120	-0.484512	57.67	74.95	0.000000	1.170320
	12.6	-9.857512	-0.461574	58.004	75.303	0.000000	1.170320
	12.6667	-9.997950	-0.439923	58.337	75.655	0.000000	1.170320
	12.7333	-10.1475	-0.416400	58.67	76.013	0.000000	1.170320
	12.8	-10.3005	-0.390185	59.004	76.362	0.000000	1.170320
	12.8667	-10.4548	-0.366544	59.337	76.716	0.000000	1.170320
	12.9333	-10.6096	-0.344776	59.67	77.066	0.000000	1.170320
	13	-10.7635	-0.322891	60.004	77.422	0.000000	1.170320
	13.0667	-10.919	-0.302528	60.337	77.771	0.000000	1.170320
	13.1333	-11.0771	-0.283451	60.67	78.126	0.000000	1.170320
	13.2	-11.2367	-0.260747	61.004	78.483	0.000000	1.170320
	13.2667	-11.3965	-0.240150	61.337	78.836	0.000000	1.170320
	13.3333	-11.556	-0.220956	61.67	79.188	0.000000	1.170320
	13.4	-11.7182	-0.199422	62.004	79.539	0.000000	1.170320
	13.4667	-11.8809	-0.179995	62.337	79.893	0.000000	1.170320
	13.5333	-12.0452	-0.156355	62.67	80.245	0.000000	1.170320
	13.6	-12.2111	-0.132012	63.004	80.597	0.000000	1.170320
	13.6667	-12.3783	-0.111063	63.337	80.949	0.000000	1.170320
	13.7333	-12.5456	-0.094796	63.67	81.304	0.000000	1.170320
	13.8	-12.712	-0.078060	64.004	81.66	0.000000	1.170320
	13.8667	-12.8816	-0.059569	64.337	82.015	0.000000	1.170320
	13.9333	-13.0545	-0.040844	64.67	82.366	0.000000	1.170320
	14	-13.2279	-0.022119	65.004	82.721	0.000000	1.170320
	14.0667	-13.403	-0.002926	65.337	83.073	0.000000	1.170320
	14.1333	-13.5804	0.016736	65.67	83.427	0.000000	1.170320
	14.2	-13.7595	0.035461	66.004	83.78	0.000000	1.170320
	14.2667	-13.9458	0.074783	66.337	84.133	0.000000	1.170320
	14.3333	-14.1325	0.101935	66.67	84.487	0.000000	1.170320
	14.4	-14.3125	0.108723	67.004	84.837	0.000000	1.170320
	14.4667	-14.4946	0.120894	67.337	85.192	0.000000	1.170320
	14.5333	-14.6805	0.136576	67.67	85.547	0.000000	1.170320
	14.6	-14.8665	0.147811	68.004	85.896	0.000000	1.170320
	14.6667	-15.0548	0.164196	68.337	86.251	0.000000	1.170320
	14.7333	-15.2455	0.180580	68.67	86.606	0.000000	1.170320
	14.8	-15.4378	0.194390	69.004	86.959	0.000000	1.170320
	14.8667	-15.6314	0.210775	69.337	87.314	0.000000	1.170320
	14.9333	-15.8268	0.227861	69.67	87.668	0.000000	1.170320
	15	-16.023	0.243543	70.004	88.019	0.000000	1.170320
	15.0667	-16.2215	0.257938	70.337	88.371	0.000000	1.170320
	15.1333	-16.4242	0.279355	70.67	88.724	0.000000	1.170320
	15.2	-16.6278	0.297846	71.004	89.077	0.000000	1.170320
	15.2667	-16.8344	0.310954	71.337	89.432	0.000000	1.170320
	15.3333	-17.0436	0.324061	71.67	89.788	0.000000	1.170320
	15.4	-17.2555	0.337754	72.004	90.14	0.000000	1.170320
	15.4667	-17.4713	0.354490	72.337	90.491	0.000000	1.170320
	15.5333	-17.6902	0.369002	72.67	90.846	0.000000	1.170320
	15.6	-17.9125	0.381641	73.004	91.201	0.000000	1.170320
	15.6667	-18.1382	0.394281	73.337	91.555	0.000000	1.170320
	15.7333	-18.3673	0.407739	73.67	91.907	0.000000	1.170320
	15.8	-18.6003	0.422368	74.004	92.261	0.000000	1.170320
	15.8667	-18.8362	0.437114	74.337	92.616	0.000000	1.170320
	15.9333	-19.0751	0.453850	74.67	92.973	0.000000	1.170320
	16	-19.3154	0.470585	75.004	93.327	0.000000	1.170320
	16.0667	-19.5596	0.487906	75.337	93.679	0.000000	1.170320
	16.1333	-19.805	0.499843	75.67	94.032	0.000000	1.170320
	16.2	-20.0499	0.508270	76.004	94.388	0.000000	1.170320
	16.2667	-20.2957	0.517866	76.337	94.741	0.000000	1.170320
	16.3333	-20.5445	0.529570	76.67	95.093	0.000000	1.170320
	16.4	-20.7953	0.542677	77.004	95.449	0.000000	1.170320
	16.4667	-21.046	0.554497	77.337	95.8	0.000000	1.170320
	16.5333	-21.2947	0.563041	77.67	96.158	0.000000	1.170320
	16.6	-21.5441	0.574393	78.004	96.511	0.000000	1.170320
	16.6667	-21.7918	0.585160	78.337	96.866	0.000000	1.170320
	16.7333	-22.0402	0.603183	78.67	97.221	0.000000	1.170320
	16.8	-22.2865	0.615003	79.004	97.573	0.000000	1.170320
	16.8667	-22.5296	0.624834	79.337	97.925	0.000000	1.170320
	16.9333	-22.7696	0.633845	79.67	98.282	0.000000	1.170320
	17	-23.0069	0.646367	80.004	98.636	0.000000	1.170320
	17.0667	-23.24	0.654092	80.337	98.987	0.000000	1.170320
	17.1333	-23.47	0.667550	80.67	99.344	0.000000	1.170320
	17.2	-23.6935	0.677849	81.004	99.696	0.000000	1.170320
	17.2667	-23.9135	0.689084	81.337	100.051	0.000000	1.170320
	17.3333	-24.1252	0.694468	81.67	100.405	0.000000	1.170320
	17.4	-24.3316	0.700553	82.004	100.758	0.000000	1.170320
	17.4667	-24.5317	0.710267	82.337	101.115	0.000000	1.170320
	17.5333	-24.7271	0.726183	82.67	101.469	0.000000	1.170320
	17.6	-24.9109	0.734727	83.004	101.824	0.000000	1.170320
	17.6667	-25.0858	0.742568	83.337	102.176	0.000000	1.170320
	17.7333	-25.2515	0.747717	83.67	102.531	0.000000	1.170320
	17.8	-25.408	0.754973	84.004	102.883	0.000000	1.170320
	17.8667	-25.5548	0.760942	84.337	103.24	0.000000	1.170320
	17.9333	-25.6912	0.768432	84.67	103.591	0.000000	1.170320
	18	-25.8176	0.779784	85.004	103.949	0.000000	1.170320
	18.0667	-25.9351	0.789732	85.337	104.303	0.000000	1.170320
	18.1333	-26.042	0.793360	85.67	104.657	0.000000	1.170320
	18.2	-26.1426	0.800147	86.004	105.009	0.000000	1.170320
	18.2667	-26.2393	0.803307	86.337	105.366	0.000000	1.170320
	18.3333	-26.3374	0.815362	86.67	105.72	0.000000	1.170320
	18.4	-26.4357	0.821564	87.004	106.073	0.000000	1.170320
	18.4667	-26.5382	0.829171	87.337	106.426	0.000000	1.170320
	18.5333	-26.6448	0.829757	87.67	106.781	0.000000	1.170320
	18.6	-26.7577	0.835140	88.004	107.132	0.000000	1.170320
	18.6667	-26.8761	0.838885	88.337	107.487	0.000000	1.170320
	18.7333	-27.0037	0.845322	88.67	107.842	0.000000	1.170320
	18.8	-27.1358	0.851876	89.004	108.195	0.000000	1.170320
	18.8667	-27.2729	0.858195	89.337	108.552	0.000000	1.170320
	18.9333	-27.4128	0.858078	89.67	108.905	0.000000	1.170320
	19	-27.558	0.861121	90.004	109.259	0.000000	1.170320
	19.0667	-27.7079	0.870601	90.337	109.616	0.000000	1.170320
	19.1333	-27.8615	0.879261	90.67	109.969	0.000000	1.170320
	19.2	-28.0174	0.882070	91.004	110.326	0.000000	1.170320
	19.2667	-28.1747	0.884528	91.337	110.679	0.000000	1.170320
	19.3333	-28.3333	0.883942	91.67	111.035	0.000000	1.170320
	19.4	-28.4953	0.886166	92.004	111.39	0.000000	1.170320
	19.4667	-28.6581	0.890262	92.337	111.742	0.000000	1.170320
	19.5333	-28.8235	0.895177	92.67	112.099	0.000000	1.170320
	19.6	-28.9904	0.896933	93.004	112.456	0.000000	1.170320
	19.6667	-29.1563	0.896114	93.337	112.807	0.000000	1.170320
	19.7333	-29.322	0.895529	93.67	113.165	0.000000	1.170320
	19.8	-29.4881	0.898103	94.004	113.517	0.000000	1.170320
	19.8667	-29.6553	0.903136	94.337	113.872	0.000000	1.170320
	19.9333	-29.8207	0.904657	94.67	114.227	0.000000	1.170320
	20	-29.9854	0.907115	95.004	114.579	0.000000	1.170320
	20.0667	-30.1492	0.909221	95.337	114.935	0.000000	1.170320
	20.1333	-30.3129	0.910158	95.67	115.29	0.000000	1.170320
	20.2	-30.4759	0.907115	96.004	115.647	0.000000	1.170320
	20.2667	-30.6391	0.906647	96.337	116	0.000000	1.170320
	20.3333	-30.8006	0.904657	96.67	116.352	0.000000	1.170320
	20.4	-30.9621	0.905944	97.004	116.709	0.000000	1.170320
	20.4667	-31.123	0.902433	97.337	117.061	0.000000	1.170320
	20.5333	-31.2835	0.900444	97.67	117.415	0.000000	1.170320
	20.6	-31.4446	0.900093	98.004	117.77	0.000000	1.170320
	20.6667	-31.6074	0.905125	98.337	118.127	0.000000	1.170320
	20.7333	-31.7687	0.906178	98.67	118.484	0.000000	1.170320
	20.8	-31.9282	0.903487	99.004	118.838	0.000000	1.170320
	20.8667	-32.0876	0.900912	99.337	119.191	0.000000	1.170320
	20.9333	-32.2458	0.898454	99.67	119.545	0.000000	1.170320
	21	-32.4047	0.893656	100.004	119.9	0.000000	1.170320
	21.0667	-32.5645	0.892018	100.337	120.255	0.000000	1.170320
	21.1333	-32.7227	0.894124	100.67	120.61	0.000000	1.170320
	21.2	-32.881	0.893071	101.004	120.964	0.000000	1.170320
	21.2667	-33.0393	0.889560	101.337	121.321	0.000000	1.170320
	21.3333	-33.1951	0.885230	101.67	121.673	0.000000	1.170320
	21.4	-33.3483	0.880782	102.004	122.029	0.000000	1.170320
	21.4667	-33.5038	0.883240	102.337	122.382	0.000000	1.170320
	21.5333	-33.6555	0.881251	102.67	122.738	0.000000	1.170320
	21.6	-33.8047	0.876803	103.004	123.09	0.000000	1.170320
	21.6667	-33.9511	0.873058	103.337	123.444	0.000000	1.170320
	21.7333	-34.0956	0.867324	103.67	123.802	0.000000	1.170320
	21.8	-34.2398	0.861472	104.004	124.154	0.000000	1.170320
	21.8667	-34.3818	0.855035	104.337	124.509	0.000000	1.170320
	21.9333	-34.5218	0.850471	104.67	124.862	0.000000	1.170320
	22	-34.6616	0.844737	105.004	125.218	0.000000	1.170320
	22.0667	-34.8023	0.839587	105.337	125.574	0.000000	1.170320
	22.1333	-34.946	0.835608	105.67	125.927	0.000000	1.170320
	22.2	-35.0841	0.834204	106.004	126.281	0.000000	1.170320
	22.2667	-35.2235	0.827182	106.337	126.637	0.000000	1.170320
	22.3333	-35.3632	0.818990	106.67	126.992	0.000000	1.170320
	22.4	-35.5028	0.811968	107.004	127.345	0.000000	1.170320
	22.4667	-35.6432	0.804712	107.337	127.701	0.000000	1.170320
	22.5333	-35.7849	0.798743	107.67	128.056	0.000000	1.170320
	22.6	-35.9267	0.790668	108.004	128.413	0.000000	1.170320
	22.6667	-36.0716	0.782593	108.337	128.765	0.000000	1.170320
	22.7333	-36.2194	0.776507	108.67	129.12	0.000000	1.170320
	22.8	-36.3682	0.768081	109.004	129.476	0.000000	1.170320
	22.8667	-36.5163	0.756612	109.337	129.832	0.000000	1.170320
	22.9333	-36.6659	0.746196	109.67	130.186	0.000000	1.170320
	23	-36.8166	0.738004	110.004	130.541	0.000000	1.170320
	23.0667	-36.9688	0.730396	110.337	130.896	0.000000	1.170320
	23.1333	-37.1234	0.719512	110.67	131.253	0.000000	1.170320
	23.2	-37.2794	0.706990	111.004	131.607	0.000000	1.170320
	23.2667	-37.4353	0.689669	111.337	131.961	0.000000	1.170320
	23.3333	-37.592	0.674338	111.67	132.312	0.000000	1.170320
	23.4	-37.7514	0.659592	112.004	132.67	0.000000	1.170320
	23.4667	-37.9149	0.649059	112.337	133.024	0.000000	1.170320
	23.5333	-38.0799	0.638292	112.67	133.381	0.000000	1.170320
	23.6	-38.2451	0.627291	113.004	133.736	0.000000	1.170320
	23.6667	-38.4114	0.608332	113.337	134.088	0.000000	1.170320
	23.7333	-38.5796	0.593001	113.67	134.444	0.000000	1.170320
	23.8	-38.7511	0.581181	114.004	134.797	0.000000	1.170320
	23.8667	-38.9261	0.569243	114.337	135.149	0.000000	1.170320
	23.9333	-39.1002	0.554848	114.67	135.504	0.000000	1.170320
	24	-39.2795	0.537762	115.004	135.861	0.000000	1.170320
	24.0667	-39.4537	0.519037	115.337	136.214	0.000000	1.170320
	24.1333	-39.6323	0.506397	115.67	136.57	0.000000	1.170320
	24.2	-39.8125	0.490364	116.004	136.923	0.000000	1.170320
	24.2667	-39.9915	0.471054	116.337	137.279	0.000000	1.170320
	24.3333	-40.171	0.449754	116.67	137.633	0.000000	1.170320
	24.4	-40.3539	0.432901	117.004	137.989	0.000000	1.170320
	24.4667	-40.5417	0.414761	117.337	138.345	0.000000	1.170320
	24.5333	-40.719	0.393578	117.67	138.7	0.000000	1.170320
	24.6	-40.897	0.378013	118.004	139.058	0.000000	1.170320
	24.6667	-41.0877	0.359756	118.337	139.412	0.000000	1.170320
	24.7333	-41.2873	0.338222	118.67	139.767	0.000000	1.170320
	24.8	-41.4709	0.317976	119.004	140.119	0.000000	1.170320
	24.8667	-41.6428	0.295974	119.337	140.475	0.000000	1.170320
	24.9333	-41.8343	0.273621	119.67	140.831	0.000000	1.170320
	25	-42.0256	0.251970	120.004	141.185	0.000000	1.170320
	25.0667	-42.2167	0.228563	120.337	141.542	0.000000	1.170320
	25.1333	-42.4091	0.205391	120.67	141.898	0.000000	1.170320
	25.2	-42.6073	0.181634	121.004	142.254	0.000000	1.170320
	25.2667	-42.7888	0.153312	121.337	142.606	0.000000	1.170320
	25.3333	-42.9584	0.129203	121.67	142.962	0.000000	1.170320
	25.4	-43.1554	0.106967	122.004	143.316	0.000000	1.170320
	25.4667	-43.3503	0.081805	122.337	143.671	0.000000	1.170320
	25.5333	-43.5447	0.055707	122.67	144.025	0.000000	1.170320
	25.6	-43.7355	0.025747	123.004	144.383	0.000000	1.170320
	25.6667	-43.9283	-0.005501	123.337	144.738	0.000000	1.170320
	25.7333	-44.1236	-0.034173	123.67	145.09	0.000000	1.170320
	25.8	-44.3172	-0.064602	124.004	145.445	0.000000	1.170320
	25.8667	-44.5089	-0.094679	124.337	145.798	0.000000	1.170320
	25.9333	-44.7019	-0.124288	124.67	146.155	0.000000	1.170320
	26	-44.8944	-0.154599	125.004	146.508	0.000000	1.170320
	26.0667	-45.0862	-0.188656	125.337	146.867	0.000000	1.170320
	26.1333	-45.2765	-0.216626	125.67	147.22	0.000000	1.170320
	26.2	-45.469	-0.245533	126.004	147.575	0.000000	1.170320
	26.2667	-45.6577	-0.278653	126.337	147.93	0.000000	1.170320
	26.3333	-45.8465	-0.308262	126.67	148.287	0.000000	1.170320
	26.4	-46.0322	-0.343957	127.004	148.639	0.000000	1.170320
	26.4667	-46.2182	-0.383046	127.337	148.993	0.000000	1.170320
	26.5333	-46.411	-0.417453	127.67	149.348	0.000000	1.170320
	26.6	-46.61	-0.452211	128.004	149.706	0.000000	1.170320
	26.6667	-46.815	-0.485332	128.337	150.062	0.000000	1.170320
	26.7333	-47.0273	-0.517749	128.67	150.419	0.000000	1.170320
	26.8	-47.2394	-0.552508	129.004	150.771	0.000000	1.170320
	26.8667	-47.4513	-0.585745	129.337	151.126	0.000000	1.170320
	26.9333	-47.6645	-0.616524	129.67	151.483	0.000000	1.170320
	27	-47.8703	-0.648123	130.004	151.832	0.000000	1.170320
	27.0667	-48.0658	-0.681360	130.337	152.189	0.000000	1.170320
	27.1333	-48.257	-0.718459	130.67	152.541	0.000000	1.170320
	27.2	-48.4334	-0.759537	131.004	152.894	0.000000	1.170320
	27.2667	-48.6041	-0.795583	131.337	153.25	0.000000	1.170320
	27.3333	-48.7697	-0.835023	131.67	153.606	0.000000	1.170320
	27.4	-48.9261	-0.872941	132.004	153.961	0.000000	1.170320
	27.4667	-49.0746	-0.913083	132.337	154.314	0.000000	1.170320
	27.5333	-49.2138	-0.950885	132.67	154.67	0.000000	1.170320
	27.6	-49.3443	-0.987165	133.004	155.024	0.000000	1.170320
	27.6667	-49.4694	-1.022391	133.337	155.379	0.000000	1.170320
	27.7333	-49.5842	-1.056213	133.67	155.735	0.000000	1.170320
	27.8	-49.6886	-1.091791	134.004	156.086	0.000000	1.170320
	27.8667	-49.7738	-1.133220	134.337	156.443	0.000000	1.170320
	27.9333	-49.8393	-1.174533	134.67	156.799	0.000000	1.170320
	28	-49.8867	-1.214089	135.004	157.15	0.000000	1.170320
	28.0667	-49.9046	-1.254700	135.337	157.507	0.000000	1.170320
	28.1333	-49.8761	-1.294607	135.67	157.86	0.000000	1.170320
	28.2	-49.7988	-1.335452	136.004	158.219	0.000000	1.170320
	28.2667	-49.6531	-1.377466	136.337	158.574	0.000000	1.170320
	28.3333	-49.4296	-1.419012	136.67	158.929	0.000000	1.170320
	28.4	-49.1299	-1.458335	137.004	159.284	0.000000	1.170320
	28.4667	-48.7765	-1.498126	137.337	159.637	0.000000	1.170320
	28.5333	-48.4226	-1.537449	137.67	159.992	0.000000	1.170320
	28.6	-48.101	-1.576889	138.004	160.347	0.000000	1.170320
	28.6667	-47.8411	-1.611530	138.337	160.704	0.000000	1.170320
	28.7333	-47.6395	-1.649214	138.67	161.058	0.000000	1.170320
	28.8	-47.4742	-1.693452	139.004	161.413	0.000000	1.170320
	28.8667	-47.3163	-1.738276	139.337	161.766	0.000000	1.170320
	28.9333	-47.1533	-1.779471	139.67	162.12	0.000000	1.170320
	29	-46.9792	-1.818794	140.004	162.475	0.000000	1.170320
	29.0667	-46.8008	-1.859872	140.337	162.829	0.000000	1.170320
	29.1333	-46.613	-1.904461	140.67	163.184	0.000000	1.170320
	29.2	-46.4024	-1.947061	141.004	163.538	0.000000	1.170320
	29.2667	-46.1366	-1.988958	141.337	163.894	0.000000	1.170320
	29.3333	-45.8047	-2.026057	141.67	164.248	0.000000	1.170320
	29.4	-45.424	-2.065965	142.004	164.605	0.000000	1.170320
	29.4667	-45.0368	-2.110788	142.337	164.958	0.000000	1.170320
	29.5333	-44.6932	-2.156080	142.67	165.313	0.000000	1.170320
	29.6	-44.5089	-2.198679	143.004	165.668	0.000000	1.170320
	29.6667	-44.4401	-2.241630	143.337	166.023	0.000000	1.170320
	29.7333	-44.5947	-2.279080	143.67	166.379	0.000000	1.170320
	29.8	-45.0041	-2.321329	144.004	166.732	0.000000	1.170320
	29.8667	-45.7241	-2.360535	144.337	167.09	0.000000	1.170320
	29.9333	-46.7606	-2.408049	144.67	167.443	0.000000	1.170320
	30	-48.1223	-2.452756	145.004	167.799	0.000000	1.170320
	30.0667	-49.8988	-2.495589	145.337	168.156	0.000000	1.170320
	30.1333	-52.1101	-2.535263	145.67	168.51	0.000000	1.170320
	30.2	-54.7331	-2.578799	146.004	168.865	0.000000	1.170320
	30.2667	-57.5029	-2.620228	146.337	169.22	0.000000	1.170320
	30.3333	-59.5563	-2.666573	146.67	169.575	0.000000	1.170320
	30.4	-60.4817	-2.711396	147.004	169.935	0.000000	1.170320
	30.4667	-60.8569	-2.758443	147.337	170.289	0.000000	1.170320
	30.5333	-61.121	-2.800809	147.67	170.64	0.000000	1.170320
	30.6	-61.375	-2.843759	148.004	170.996	0.000000	1.170320
	30.6667	-61.6302	-2.885657	148.337	171.348	0.000000	1.170320
	30.7333	-61.8828	-2.932587	148.67	171.705	0.000000	1.170320
	30.8	-62.1356	-2.980219	149.004	172.063	0.000000	1.170320
	30.8667	-62.3865	-3.031479	149.337	172.413	0.000000	1.170320
	30.9333	-62.6449	-3.069514	149.67	172.771	0.000000	1.170320
	31	-62.8998	-3.116210	150.004	173.125	0.000000	1.170320
	31.0667	-63.157	-3.161969	150.337	173.479	0.000000	1.170320
	31.1333	-63.4119	-3.212527	150.67	173.834	0.000000	1.170320
	31.2	-63.6716	-3.262383	151.004	174.186	0.000000	1.170320
	31.2667	-63.9322	-3.311185	151.337	174.543	0.000000	1.170320
	31.3333	-64.1942	-3.356359	151.67	174.9	0.000000	1.170320
	31.4	-64.4587	-3.401651	152.004	175.252	0.000000	1.170320
	31.4667	-64.7296	-3.449166	152.337	175.612	0.000000	1.170320
	31.5333	-64.9995	-3.499958	152.67	175.965	0.000000	1.170320
	31.6	-65.2713	-3.546653	153.004	176.32	0.000000	1.170320
	31.6667	-65.5437	-3.593817	153.337	176.675	0.000000	1.170320
	31.7333	-65.8191	-3.636066	153.67	177.028	0.000000	1.170320
	31.8	-66.0922	-3.683581	154.004	177.384	0.000000	1.170320
	31.8667	-66.3637	-3.730628	154.337	177.735	0.000000	1.170320
	31.9333	-66.6351	-3.782707	154.67	178.094	0.000000	1.170320
	32	-66.9093	-3.833265	155.004	178.448	0.000000	1.170320
	32.0667	-67.1757	-3.883120	155.337	178.803	0.000000	1.170320
	32.1333	-67.4579	-3.930401	155.67	179.157	0.000000	1.170320
	32.2	-67.7303	-3.977682	156.004	179.512	0.000000	1.170320
	32.2667	-68.0072	-4.028942	156.337	179.867	0.000000	1.170320
	32.3333	-68.2744	-4.079734	156.67	180.22	0.000000	1.170320
	32.4	-68.5603	-4.130994	157.004	180.576	0.000000	1.170320
	32.4667	-68.8403	-4.178275	157.337	180.929	0.000000	1.170320
	32.5333	-69.1221	-4.224854	157.67	181.286	0.000000	1.170320
	32.6	-69.4021	-4.275645	158.004	181.641	0.000000	1.170320
	32.6667	-69.6838	-4.325384	158.337	181.989	0.000000	1.170320
	32.7333	-69.9654	-4.375708	158.67	182.347	0.000000	1.170320
	32.8	-70.2467	-4.428138	159.004	182.702	0.000000	1.170320
	32.8667	-70.5296	-4.477291	159.337	183.055	0.000000	1.170320
	32.9333	-70.8123	-4.526211	159.67	183.412	0.000000	1.170320
	33	-71.0961	-4.574428	160.004	183.766	0.000000	1.170320
	33.0667	-71.3826	-4.625922	160.337	184.123	0.000000	1.170320
	33.1333	-71.6656	-4.682917	160.67	184.479	0.000000	1.170320
	33.2	-71.9492	-4.732304	161.004	184.837	0.000000	1.170320
	33.2667	-72.2341	-4.775957	161.337	185.192	0.000000	1.170320
	33.3333	-72.5164	-4.823589	161.67	185.543	0.000000	1.170320
	33.4	-72.785	-4.874498	162.004	185.9	0.000000	1.170320
	33.4667	-73.0717	-4.927279	162.337	186.254	0.000000	1.170320
	33.5333	-73.3649	-4.983338	162.67	186.61	0.000000	1.170320
	33.6	-73.6505	-5.038811	163.004	186.967	0.000000	1.170320
	33.6667	-73.9393	-5.089252	163.337	187.324	0.000000	1.170320
	33.7333	-74.2291	-5.139341	163.67	187.677	0.000000	1.170320
	33.8	-74.5154	-5.192357	164.004	188.032	0.000000	1.170320
	33.8667	-74.8071	-5.245723	164.337	188.389	0.000000	1.170320
	33.9333	-75.0937	-5.301899	164.67	188.741	0.000000	1.170320
	34	-75.381	-5.354095	165.004	189.094	0.000000	1.170320
	34.0667	-75.6727	-5.403716	165.337	189.45	0.000000	1.170320
	34.1333	-75.9693	-5.455210	165.67	189.807	0.000000	1.170320
	34.2	-76.259	-5.511035	166.004	190.161	0.000000	1.170320
	34.2667	-76.5525	-5.566391	166.337	190.515	0.000000	1.170320
	34.3333	-76.8448	-5.621162	166.67	190.871	0.000000	1.170320
	34.4	-77.1394	-5.676050	167.004	191.224	0.000000	1.170320
	34.4667	-77.4334	-5.728714	167.337	191.58	0.000000	1.170320
	34.5333	-77.7282	-5.783836	167.67	191.936	0.000000	1.170320
	34.6	-78.0218	-5.839543	168.004	192.287	0.000000	1.170320
	34.6667	-78.3198	-5.895836	168.337	192.647	0.000000	1.170320
	34.7333	-78.6159	-5.948617	168.67	193	0.000000	1.170320
	34.8	-78.9162	-6.001984	169.004	193.355	0.000000	1.170320
	34.8667	-79.2156	-6.057574	169.337	193.713	0.000000	1.170320
	34.9333	-79.5127	-6.117962	169.67	194.067	0.000000	1.170320
	35	-79.8129	-6.175542	170.004	194.423	0.000000	1.170320
	35.0667	-80.1113	-6.234175	170.337	194.777	0.000000	1.170320
	35.1333	-80.4119	-6.292106	170.67	195.129	0.000000	1.170320
	35.2	-80.7131	-6.350271	171.004	195.489	0.000000	1.170320
	35.2667	-81.0163	-6.408085	171.337	195.843	0.000000	1.170320
	35.3333	-81.3201	-6.464260	171.67	196.2	0.000000	1.170320
	35.4	-81.625	-6.524414	172.004	196.554	0.000000	1.170320
	35.4667	-81.9293	-6.583399	172.337	196.911	0.000000	1.170320
	35.5333	-82.2336	-6.643436	172.67	197.263	0.000000	1.170320
	35.6	-82.5333	-6.700899	173.004	197.618	0.000000	1.170320
	35.6667	-82.8409	-6.758010	173.337	197.971	0.000000	1.170320
	35.7333	-83.1498	-6.819335	173.67	198.33	0.000000	1.170320
	35.8	-83.4595	-6.879255	174.004	198.689	0.000000	1.170320
	35.8667	-83.7666	-6.939527	174.337	199.041	0.000000	1.170320
	35.9333	-84.0751	-7.002958	174.67	199.397	0.000000	1.170320
	36	-84.3816	-7.067092	175.004	199.75	0.000000	1.170320
	36.0667	-84.6917	-7.125491	175.337	200.106	0.000000	1.170320
	36.1333	-84.9932	-7.186347	175.67	200.459	0.000000	1.170320
	36.2	-85.3115	-7.247906	176.004	200.816	0.000000	1.170320
	36.2667	-85.6146	-7.312274	176.337	201.17	0.000000	1.170320
	36.3333	-85.9325	-7.375705	176.67	201.525	0.000000	1.170320
	36.4	-86.242	-7.438434	177.004	201.879	0.000000	1.170320
	36.4667	-86.5592	-7.494609	177.337	202.234	0.000000	1.170320
	36.5333	-86.872	-7.558275	177.67	202.588	0.000000	1.170320
	36.6	-87.1884	-7.621823	178.004	202.944	0.000000	1.170320
	36.6667	-87.5008	-7.692510	178.337	203.298	0.000000	1.170320
	36.7333	-87.8165	-7.759570	178.67	203.656	0.000000	1.170320
	36.8	-88.1343	-7.824874	179.004	204.011	0.000000	1.170320
	36.8667	-88.4508	-7.891933	179.337	204.364	0.000000	1.170320
	36.9333	-88.7554	-7.963907	179.67	204.721	0.000000	1.170320
	37	-89.0958	-8.033307	180.004	205.075	0.000000	1.170320
	37.0667	-89.4182	-8.103058	180.337	205.429	0.000000	1.170320
	37.1333	-89.7419	-8.175384	180.67	205.785	0.000000	1.170320
	37.2	-90.0661	-8.246423	181.004	206.141	0.000000	1.170320
	37.2667	-90.3884	-8.318280	181.337	206.497	0.000000	1.170320
	37.3333	-90.7157	-8.399266	181.67	206.853	0.000000	1.170320
	37.4	-91.0425	-8.482242	182.004	207.208	0.000000	1.170320
	37.4667	-91.3648	-8.570484	182.337	207.562	0.000000	1.170320
	37.5333	-91.6949	-8.661652	182.67	207.915	0.000000	1.170320
	37.6	-92.0238	-8.749309	183.004	208.274	0.000000	1.170320
	37.6667	-92.3276	-8.835796	183.337	208.626	0.000000	1.170320
	37.7333	-92.6913	-8.924740	183.67	208.982	0.000000	1.170320
	37.8	-93.0379	-9.013684	184.004	209.338	0.000000	1.170320
	37.8667	-93.3811	-9.100756	184.337	209.692	0.000000	1.170320
	37.9333	-93.7216	-9.189466	184.67	210.049	0.000000	1.170320
	38	-94.0674	-9.270569	185.004	210.403	0.000000	1.170320
	38.0667	-94.4087	-9.354481	185.337	210.756	0.000000	1.170320
	38.1333	-94.7519	-9.441436	185.67	211.111	0.000000	1.170320
	38.2	-95.0998	-9.523943	186.004	211.468	0.000000	1.170320
	38.2667	-95.4422	-9.610313	186.337	211.82	0.000000	1.170320
	38.3333	-95.7853	-9.693757	186.67	212.174	0.000000	1.170320
	38.4	-96.1385	-9.777552	187.004	212.533	0.000000	1.170320
	38.4667	-96.4881	-9.860059	187.337	212.889	0.000000	1.170320
	38.5333	-96.8352	-9.944205	187.67	213.245	0.000000	1.170320
	38.6	-97.1848	-10.0247	188.004	213.6	0.000000	1.170320
	38.6667	-97.5366	-10.1082	188.337	213.954	0.000000	1.170320
	38.7333	-97.8803	-10.1893	188.67	214.311	0.000000	1.170320
	38.8	-98.2352	-10.2657	189.004	214.664	0.000000	1.170320
	38.8667	-98.5894	-10.3489	189.337	215.023	0.000000	1.170320
	38.9333	-98.9441	-10.4383	189.67	215.374	0.000000	1.170320
	39	-99.3013	-10.5249	190.004	215.732	0.000000	1.170320
	39.0667	-99.6557	-10.615	190.337	216.086	0.000000	1.170320
	39.1333	-100.015	-10.7037	190.67	216.443	0.000000	1.170320
	39.2	-100.369	-10.794	191.004	216.798	0.000000	1.170320
	39.2667	-100.701	-10.8821	191.337	217.153	0.000000	1.170320
	39.3333	-101.085	-10.9708	191.67	217.508	0.000000	1.170320
	39.4	-101.446	-11.0574	192.004	217.862	0.000000	1.170320
	39.4667	-101.809	-11.1295	192.337	218.215	0.000000	1.170320
	39.5333	-102.181	-11.1906	192.67	218.569	0.000000	1.170320
	39.6	-102.534	-11.2946	193.004	218.925	0.000000	1.170320
	39.6667	-102.89	-11.3886	193.337	219.279	0.000000	1.170320
	39.7333	-103.246	-11.4785	193.67	219.629	0.000000	1.170320
	39.8	-103.606	-11.5721	194.004	219.984	0.000000	1.170320
	39.8667	-103.949	-11.6613	194.337	220.339	0.000000	1.170320
	39.9333	-104.311	-11.7457	194.67	220.693	0.000000	1.170320
	40	-104.691	-11.835	195.004	221.051	0.000000	1.170320
[...]
	52.7167	-29.5487	18.8095	85.662	102.639	0.000000	1.170320
	52.7333	-29.3731	18.793	85.329	102.286	0.000000	1.170320
	52.75	-29.1914	18.7763	84.995	101.934	0.000000	1.170320
	52.7667	-29.0137	18.7594	84.662	101.579	0.000000	1.170320
	52.7833	-28.8352	18.7435	84.329	101.226	0.000000	1.170320
	52.8	-28.658	18.7282	83.995	100.874	0.000000	1.170320
	52.8167	-28.4899	18.7139	83.662	100.52	0.000000	1.170320
	52.8333	-28.3261	18.7	83.329	100.167	0.000000	1.170320
	52.85	-28.164	18.6866	82.995	99.813	0.000000	1.170320
	52.8667	-27.9927	18.6727	82.662	99.462	0.000000	1.170320
	52.8833	-27.8186	18.6583	82.329	99.111	0.000000	1.170320
	52.9	-27.6441	18.6426	81.995	98.759	0.000000	1.170320
	52.9167	-27.4702	18.6245	81.662	98.403	0.000000	1.170320
	52.9333	-27.2969	18.607	81.329	98.048	0.000000	1.170320
	52.95	-27.1267	18.5891	80.995	97.693	0.000000	1.170320
	52.9667	-26.9592	18.5713	80.662	97.34	0.000000	1.170320
	52.9833	-26.7892	18.5547	80.329	96.987	0.000000	1.170320
	53	-26.623	18.539	79.995	96.636	0.000000	1.170320
	53.0167	-26.4578	18.5237	79.662	96.282	0.000000	1.170320
	53.0333	-26.2947	18.5086	79.329	95.93	0.000000	1.170320
	53.05	-26.132	18.4935	78.995	95.578	0.000000	1.170320
	53.0667	-25.9694	18.4779	78.662	95.226	0.000000	1.170320
	53.0833	-25.8042	18.4568	78.329	94.876	0.000000	1.170320
	53.1	-25.6393	18.433	77.995	94.523	0.000000	1.170320
	53.1167	-25.4738	18.4091	77.662	94.167	0.000000	1.170320
	53.1333	-25.3104	18.3847	77.329	93.815	0.000000	1.170320
	53.15	-25.1453	18.3609	76.995	93.465	0.000000	1.170320
	53.1667	-24.9817	18.338	76.662	93.113	0.000000	1.170320
	53.1833	-24.8161	18.3161	76.329	92.763	0.000000	1.170320
	53.2	-24.6541	18.2996	75.995	92.411	0.000000	1.170320
	53.2167	-24.4952	18.2844	75.662	92.056	0.000000	1.170320
	53.2333	-24.3361	18.2683	75.329	91.704	0.000000	1.170320
	53.25	-24.1715	18.2528	74.995	91.349	0.000000	1.170320
	53.2667	-24.0123	18.2336	74.662	90.998	0.000000	1.170320
	53.2833	-23.8535	18.2115	74.329	90.646	0.000000	1.170320
	53.3	-23.6938	18.1884	73.995	90.295	0.000000	1.170320
	53.3167	-23.535	18.1635	73.662	89.94	0.000000	1.170320
	53.3333	-23.3752	18.1381	73.329	89.588	0.000000	1.170320
	53.35	-23.2147	18.1128	72.995	89.238	0.000000	1.170320
	53.3667	-23.0546	18.088	72.662	88.887	0.000000	1.170320
	53.3833	-22.8928	18.0639	72.329	88.536	0.000000	1.170320
	53.4	-22.7341	18.0442	71.995	88.184	0.000000	1.170320
	53.4167	-22.5781	18.0256	71.662	87.835	0.000000	1.170320
	53.4333	-22.4219	18.0064	71.329	87.482	0.000000	1.170320
	53.45	-22.2635	17.9871	70.995	87.127	0.000000	1.170320
	53.4667	-22.1061	17.9628	70.662	86.775	0.000000	1.170320
	53.4833	-21.9489	17.9361	70.329	86.419	0.000000	1.170320
	53.5	-21.7929	17.9083	69.995	86.069	0.000000	1.170320
	53.5167	-21.637	17.879	69.662	85.716	0.000000	1.170320
	53.5333	-21.4766	17.845	69.329	85.365	0.000000	1.170320
	53.55	-21.3151	17.8049	68.995	85.015	0.000000	1.170320
	53.5667	-21.152	17.7669	68.662	84.667	0.000000	1.170320
	53.5833	-20.9922	17.7374	68.329	84.316	0.000000	1.170320
	53.6	-20.8382	17.7188	67.995	83.965	0.000000	1.170320
	53.6167	-20.6866	17.704	67.662	83.613	0.000000	1.170320
	53.6333	-20.5373	17.6876	67.329	83.262	0.000000	1.170320
	53.65	-20.3878	17.6723	66.995	82.91	0.000000	1.170320
	53.6667	-20.2378	17.6529	66.662	82.559	0.000000	1.170320
	53.6833	-20.0884	17.6292	66.329	82.206	0.000000	1.170320
	53.7	-19.9376	17.6031	65.995	81.857	0.000000	1.170320
	53.7167	-19.785	17.5749	65.662	81.507	0.000000	1.170320
	53.7333	-19.6331	17.5446	65.329	81.156	0.000000	1.170320
	53.75	-19.4799	17.5147	64.995	80.805	0.000000	1.170320
	53.7667	-19.3267	17.4856	64.662	80.452	0.000000	1.170320
	53.7833	-19.174	17.4577	64.329	80.103	0.000000	1.170320
	53.8	-19.0237	17.4319	63.995	79.75	0.000000	1.170320
	53.8167	-18.8753	17.4064	63.662	79.399	0.000000	1.170320
	53.8333	-18.7282	17.381	63.329	79.051	0.000000	1.170320
	53.85	-18.5805	17.3554	62.995	78.699	0.000000	1.170320
	53.8667	-18.4335	17.3274	62.662	78.347	0.000000	1.170320
	53.8833	-18.2849	17.2973	62.329	77.999	0.000000	1.170320
	53.9	-18.1366	17.2662	61.995	77.648	0.000000	1.170320
	53.9167	-17.9876	17.2324	61.662	77.301	0.000000	1.170320
	53.9333	-17.8385	17.1989	61.329	76.948	0.000000	1.170320
	53.95	-17.6905	17.1657	60.995	76.601	0.000000	1.170320
	53.9667	-17.5407	17.1334	60.662	76.249	0.000000	1.170320
	53.9833	-17.3897	17.1027	60.329	75.895	0.000000	1.170320
	54	-17.2441	17.0732	59.995	75.539	0.000000	1.170320
	54.0167	-17.1	17.0439	59.662	75.185	0.000000	1.170320
	54.0333	-16.9578	17.0148	59.329	74.836	0.000000	1.170320
	54.05	-16.8142	16.9854	58.995	74.488	0.000000	1.170320
	54.0667	-16.6703	16.9525	58.662	74.136	0.000000	1.170320
	54.0833	-16.5252	16.9186	58.329	73.784	0.000000	1.170320
	54.1	-16.3802	16.8842	57.995	73.435	0.000000	1.170320
	54.1167	-16.236	16.8497	57.662	73.084	0.000000	1.170320
	54.1333	-16.0865	16.815	57.329	72.735	0.000000	1.170320
	54.15	-15.9345	16.7799	56.995	72.386	0.000000	1.170320
	54.1667	-15.7936	16.746	56.662	72.037	0.000000	1.170320
	54.1833	-15.656	16.7129	56.329	71.686	0.000000	1.170320
	54.2	-15.5171	16.679	55.995	71.336	0.000000	1.170320
	54.2167	-15.3772	16.645	55.662	70.988	0.000000	1.170320
	54.2333	-15.2371	16.6116	55.329	70.639	0.000000	1.170320
	54.25	-15.0963	16.5745	54.995	70.291	0.000000	1.170320
	54.2667	-14.9566	16.5363	54.662	69.938	0.000000	1.170320
	54.2833	-14.8152	16.498	54.329	69.591	0.000000	1.170320
	54.3	-14.673	16.4589	53.995	69.247	0.000000	1.170320
	54.3167	-14.5315	16.4198	53.662	68.896	0.000000	1.170320
	54.3333	-14.3909	16.3804	53.329	68.547	0.000000	1.170320
	54.35	-14.2514	16.3408	52.995	68.202	0.000000	1.170320
	54.3667	-14.1098	16.3024	52.662	67.852	0.000000	1.170320
	54.3833	-13.9695	16.2651	52.329	67.501	0.000000	1.170320
	54.4	-13.83	16.2281	51.995	67.155	0.000000	1.170320
	54.4167	-13.6921	16.1916	51.662	66.808	0.000000	1.170320
	54.4333	-13.554	16.155	51.329	66.459	0.000000	1.170320
	54.45	-13.4153	16.1178	50.995	66.111	0.000000	1.170320
	54.4667	-13.277	16.0784	50.662	65.764	0.000000	1.170320
	54.4833	-13.1383	16.0361	50.329	65.416	0.000000	1.170320
	54.5	-12.9965	15.9927	49.995	65.069	0.000000	1.170320
	54.5167	-12.8582	15.949	49.662	64.721	0.000000	1.170320
	54.5333	-12.7159	15.9051	49.329	64.367	0.000000	1.170320
	54.55	-12.5765	15.8622	48.995	64.018	0.000000	1.170320
	54.5667	-12.4346	15.8201	48.662	63.67	0.000000	1.170320
	54.5833	-12.296	15.7792	48.329	63.323	0.000000	1.170320
	54.6	-12.1581	15.7385	47.995	62.974	0.000000	1.170320
	54.6167	-12.0207	15.6981	47.662	62.628	0.000000	1.170320
	54.6333	-11.8836	15.657	47.329	62.286	0.000000	1.170320
	54.65	-11.7462	15.615	46.995	61.937	0.000000	1.170320
	54.6667	-11.6039	15.5718	46.662	61.59	0.000000	1.170320
	54.6833	-11.4641	15.5262	46.329	61.247	0.000000	1.170320
	54.7	-11.3249	15.4793	45.995	60.898	0.000000	1.170320
	54.7167	-11.1822	15.4312	45.662	60.554	0.000000	1.170320
	54.7333	-11.038	15.3817	45.329	60.211	0.000000	1.170320
	54.75	-10.8917	15.3286	44.995	59.868	0.000000	1.170320
	54.7667	-10.7444	15.2789	44.662	59.522	0.000000	1.170320
	54.7833	-10.5977	15.2293	44.329	59.178	0.000000	1.170320
	54.8	-10.449	15.1807	43.995	58.834	0.000000	1.170320
	54.8167	-10.2983	15.1328	43.662	58.489	0.000000	1.170320
	54.8333	-10.1452	15.0853	43.329	58.148	0.000000	1.170320
	54.85	-9.987535	15.0354	42.995	57.805	0.000000	1.170320
	54.8667	-9.826967	14.981	42.662	57.46	0.000000	1.170320
	54.8833	-9.660079	14.9241	42.329	57.117	0.000000	1.170320
	54.9	-9.486755	14.8669	41.995	56.773	0.000000	1.170320
	54.9167	-9.308164	14.8095	41.662	56.432	0.000000	1.170320
	54.9333	-9.124307	14.7518	41.329	56.086	0.000000	1.170320
	54.95	-8.934013	14.6925	40.995	55.747	0.000000	1.170320
	54.9667	-8.736931	14.6338	40.662	55.408	0.000000	1.170320
	54.9833	-8.533178	14.5766	40.329	55.063	0.000000	1.170320
	55	-8.325447	14.5209	39.995	54.722	0.000000	1.170320
	55.0167	-8.111044	14.4647	39.662	54.384	0.000000	1.170320
	55.0333	-7.890088	14.4084	39.329	54.043	0.000000	1.170320
	55.05	-7.665035	14.3492	38.995	53.702	0.000000	1.170320
	55.0667	-7.428748	14.2852	38.662	53.361	0.000000	1.170320
	55.0833	-7.191056	14.2182	38.329	53.016	0.000000	1.170320
	55.1	-6.951726	14.1486	37.995	52.68	0.000000	1.170320
	55.1167	-6.709118	14.0779	37.662	52.342	0.000000	1.170320
	55.1333	-6.466979	14.0066	37.329	52.005	0.000000	1.170320
	55.15	-6.223787	13.9353	36.995	51.671	0.000000	1.170320
	55.1667	-5.981531	13.8588	36.662	51.33	0.000000	1.170320
	55.1833	-5.739392	13.7816	36.329	50.998	0.000000	1.170320
	55.2	-5.500646	13.7042	35.995	50.665	0.000000	1.170320
	55.2167	-5.264008	13.6247	35.662	50.33	0.000000	1.170320
	55.2333	-5.030997	13.5438	35.329	49.997	0.000000	1.170320
	55.25	-4.800327	13.4566	34.995	49.667	0.000000	1.170320
	55.2667	-4.574339	13.3647	34.662	49.336	0.000000	1.170320
	55.2833	-4.351978	13.2721	34.329	49.005	0.000000	1.170320
	55.3	-4.133011	13.1736	33.995	48.676	0.000000	1.170320
	55.3167	-3.917204	13.0728	33.662	48.35	0.000000	1.170320
	55.3333	-3.707015	12.9647	33.329	48.022	0.000000	1.170320
	55.35	-3.501038	12.8548	32.995	47.698	0.000000	1.170320
	55.3667	-3.296467	12.7379	32.662	47.375	0.000000	1.170320
	55.3833	-3.096810	12.6145	32.329	47.055	0.000000	1.170320
	55.4	-2.968075	12.4831	31.995	46.734	0.000000	1.170320
	55.4167	-2.913070	12.3443	31.662	46.429	0.000000	1.170320
	55.4333	-2.810316	12.1971	31.329	46.128	0.000000	1.170320
	55.45	-2.647290	12.0448	30.995	45.848	0.000000	1.170320
	55.4667	-2.444708	11.8765	30.662	45.576	0.000000	1.170320
	55.4833	-2.222932	11.6945	30.329	45.322	0.000000	1.170320
	55.5	-1.995890	11.4941	29.995	45.073	0.000000	1.170320
	55.5167	-1.772242	11.2721	29.662	44.834	0.000000	1.170320
	55.5333	-1.555850	11.0366	29.329	44.609	0.000000	1.170320
	55.55	-1.348821	10.7738	28.995	44.394	0.000000	1.170320
	55.5667	-1.151388	10.4802	28.662	44.19	0.000000	1.170320
	55.5833	-0.963318	10.1413	28.329	43.992	0.000000	1.170320
	55.6	-0.781801	9.758710	27.995	43.803	0.000000	1.170320
	55.6167	-0.611519	9.884051	27.662	43.622	0.000000	1.170320
	55.6333	-0.449898	10.5324	27.329	43.445	0.000000	1.170320
	55.65	-0.296235	10.6034	26.995	43.279	0.000000	1.170320
	55.6667	-0.150765	10.2679	26.662	43.127	0.000000	1.170320
	55.6833	-0.012082	9.722196	26.329	42.977	0.000000	1.170320
	55.7	0.118175	9.095138	25.995	42.831	0.000000	1.170320
	55.7167	0.244218	8.452750	25.662	42.694	0.000000	1.170320
	55.7333	0.364995	7.819841	25.329	42.563	0.000000	1.170320
	55.75	0.480038	7.209519	24.995	42.438	0.000000	1.170320
	55.7667	0.589345	6.623658	24.662	42.316	0.000000	1.170320
	55.7833	0.693738	6.065415	24.329	42.2	0.000000	1.170320
	55.8	0.793449	5.531398	23.995	42.092	0.000000	1.170320
	55.8167	0.887777	5.023714	23.662	41.987	0.000000	1.170320
	55.8333	0.976370	4.540489	23.329	41.883	0.000000	1.170320
	55.85	1.058292	4.080553	22.995	41.786	0.000000	1.170320
	55.8667	1.132842	3.641917	22.662	41.69	0.000000	1.170320
	55.8833	1.199433	3.224347	22.329	41.596	0.000000	1.170320
	55.9	1.258183	2.826205	21.995	41.507	0.000000	1.170320
	55.9167	1.309326	2.447606	21.662	41.412	0.000000	1.170320
	55.9333	1.352862	2.087382	21.329	41.322	0.000000	1.170320
	55.95	1.389259	1.744127	20.995	41.231	0.000000	1.170320
	55.9667	1.419102	1.415384	20.662	41.139	0.000000	1.170320
	55.9833	1.443328	1.103962	20.329	41.047	0.000000	1.170320
	56	1.463691	0.803775	19.995	40.956	0.000000	1.170320
	56.0167	1.480427	0.515409	19.662	40.86	0.000000	1.170320
	56.0333	1.493651	0.235468	19.329	40.767	0.000000	1.170320
	56.05	1.503131	-0.045994	18.995	40.676	0.000000	1.170320
	56.0667	1.508397	-0.313295	18.662	40.581	0.000000	1.170320
	56.0833	1.509100	-0.566435	18.329	40.487	0.000000	1.170320
	56.1	1.504418	-0.797924	17.995	40.395	0.000000	1.170320
	56.1167	1.492832	-0.995240	17.662	40.305	0.000000	1.170320
	56.1333	1.472820	-1.155925	17.329	40.214	0.000000	1.170320
	56.15	1.441572	-1.279744	16.995	40.121	0.000000	1.170320
	56.1667	1.396749	-1.379105	16.662	40.031	0.000000	1.170320
	56.1833	1.334371	-1.461144	16.329	39.95	0.000000	1.170320
	56.2	1.248820	-1.536630	15.995	39.863	0.000000	1.170320
	56.2167	1.108382	-1.613754	15.662	39.779	0.000000	1.170320
	56.2333	0.242463	-1.691112	15.329	39.699	0.000000	1.170320
	56.25	0.172361	-1.780875	14.995	39.616	0.000000	1.170320
	56.2667	0.360548	-1.887725	14.662	39.54	0.000000	1.170320
	56.2833	0.560321	-2.014939	14.329	39.466	0.000000	1.170320
	56.3	0.757754	-2.167081	13.995	39.394	0.000000	1.170320
	56.3167	0.944186	-2.348129	13.662	39.329	0.000000	1.170320
	56.3333	1.115872	-2.564638	13.329	39.264	0.000000	1.170320
	56.35	1.271408	-2.820002	12.995	39.202	0.000000	1.170320
	56.3667	1.410559	-3.126158	12.662	39.143	0.000000	1.170320
	56.3833	1.532272	-3.489425	12.329	39.091	0.000000	1.170320
	56.4	1.644271	-3.928061	11.995	39.036	0.000000	1.170320
	56.4167	1.742578	-4.453183	11.662	38.986	0.000000	1.170320
	56.4333	1.830586	-5.918306	11.329	38.934	0.000000	1.170320
	56.45	1.908764	-5.584297	10.995	38.889	0.000000	1.170320
	56.4667	1.980036	-4.753487	10.662	38.841	0.000000	1.170320
	56.4833	2.044287	-4.158965	10.329	38.799	0.000000	1.170320
	56.5	2.103271	-3.786686	9.995000	38.758	0.000000	1.170320
	56.5167	2.157574	-3.583401	9.662000	38.721	0.000000	1.170320
	56.5333	2.207780	-3.499724	9.329000	38.685	0.000000	1.170320
	56.55	2.255178	-3.486265	8.995000	38.649	0.000000	1.170320
	56.5667	2.299416	-3.519502	8.662000	38.613	0.000000	1.170320
	56.5833	2.341431	-3.580125	8.329000	38.578	0.000000	1.170320
	56.6	2.381339	-3.654089	7.995000	38.546	0.000000	1.170320
	56.6167	2.419257	-3.736245	7.662000	38.515	0.000000	1.170320
	56.6333	2.456005	-3.821210	7.329000	38.487	0.000000	1.170320
	56.65	2.491349	-3.905473	6.995000	38.457	0.000000	1.170320
	56.6667	2.525639	-3.987747	6.662000	38.432	0.000000	1.170320
	56.6833	2.558642	-4.067797	6.329000	38.407	0.000000	1.170320
	56.7	2.590943	-4.145740	5.995000	38.38	0.000000	1.170320
	56.7167	2.622073	-4.220640	5.662000	38.358	0.000000	1.170320
	56.7333	2.652385	-4.291328	5.329000	38.334	0.000000	1.170320
	56.75	2.681994	-4.358972	4.995000	38.313	0.000000	1.170320
	56.7667	2.710784	-4.423457	4.662000	38.292	0.000000	1.170320
	56.7833	2.738988	-4.483728	4.329000	38.277	0.000000	1.170320
	56.8	2.766608	-4.540840	3.995000	38.252	0.000000	1.170320
	56.8167	2.793642	-4.595260	3.662000	38.234	0.000000	1.170320
	56.8333	2.820209	-4.646403	3.329000	38.217	0.000000	1.170320
	56.85	2.846190	-4.694503	2.995000	38.202	0.000000	1.170320
	56.8667	2.871586	-4.740028	2.662000	38.188	0.000000	1.170320
	56.8833	2.896513	-4.782979	2.329000	38.168	0.000000	1.170320
	56.9	2.921090	-4.823589	1.995000	38.153	0.000000	1.170320
	56.9167	2.945082	-4.861273	1.662000	38.138	0.000000	1.170320
	56.9333	2.968839	-4.896500	1.329000	38.124	0.000000	1.170320
	56.95	2.992245	-4.930088	0.995000	38.109	0.000000	1.170320
	56.9667	3.015418	-4.960868	0.662000	38.097	0.000000	1.170320
	56.9833	3.038239	-4.992115	0.329000	38.085	0.000000	1.170320
5) Diamond DSC Isothermal
	57	2.913132	-4.992115	0.000000	38.071	0.000000	1.170320
	57.0167	2.929399	-4.992115	0.000000	38.063	0.000000	1.170320
	57.0333	2.942273	-4.992115	0.000000	38.049	0.000000	1.170320
	57.05	2.952689	-4.992115	0.000000	38.038	0.000000	1.170320
	57.0667	2.960179	-4.992115	0.000000	38.027	0.000000	1.170320
	57.0833	2.965679	-4.992115	0.000000	38.02	0.000000	1.170320
	57.1	2.970361	-4.992115	0.000000	38.008	0.000000	1.170320
	57.1167	2.974340	-4.992115	0.000000	37.999	0.000000	1.170320
	57.1333	2.977851	-4.992115	0.000000	37.991	0.000000	1.170320
	57.15	2.980776	-4.992115	0.000000	37.981	0.000000	1.170320
	57.1667	2.983585	-4.992115	0.000000	37.972	0.000000	1.170320
	57.1833	2.986511	-4.992115	0.000000	37.964	0.000000	1.170320
	57.2	2.989320	-4.992115	0.000000	37.956	0.000000	1.170320
	57.2167	2.991894	-4.992115	0.000000	37.947	0.000000	1.170320
	57.2333	2.994820	-4.992115	0.000000	37.942	0.000000	1.170320
	57.25	2.997746	-4.992115	0.000000	37.934	0.000000	1.170320
	57.2667	3.000438	-4.992115	0.000000	37.932	0.000000	1.170320
	57.2833	3.003129	-4.992115	0.000000	37.922	0.000000	1.170320
	57.3	3.005704	-4.992115	0.000000	37.916	0.000000	1.170320
	57.3167	3.008279	-4.992115	0.000000	37.91	0.000000	1.170320
	57.3333	3.010737	-4.992115	0.000000	37.902	0.000000	1.170320
	57.35	3.013311	-4.992115	0.000000	37.895	0.000000	1.170320
	57.3667	3.015769	-4.992115	0.000000	37.889	0.000000	1.170320
	57.3833	3.018110	-4.992115	0.000000	37.882	0.000000	1.170320
	57.4	3.020450	-4.992115	0.000000	37.876	0.000000	1.170320
	57.4167	3.022557	-4.992115	0.000000	37.872	0.000000	1.170320
	57.4333	3.024663	-4.992115	0.000000	37.868	0.000000	1.170320
	57.45	3.026887	-4.992115	0.000000	37.861	0.000000	1.170320
	57.4667	3.028876	-4.992115	0.000000	37.857	0.000000	1.170320
	57.4833	3.030749	-4.992115	0.000000	37.855	0.000000	1.170320
	57.5	3.032739	-4.992115	0.000000	37.85	0.000000	1.170320
	57.5167	3.034494	-4.992115	0.000000	37.848	0.000000	1.170320
	57.5333	3.036249	-4.992115	0.000000	37.845	0.000000	1.170320
	57.55	3.037888	-4.992115	0.000000	37.836	0.000000	1.170320
	57.5667	3.039526	-4.992115	0.000000	37.83	0.000000	1.170320
	57.5833	3.040931	-4.992115	0.000000	37.829	0.000000	1.170320
	57.6	3.042452	-4.992115	0.000000	37.823	0.000000	1.170320
	57.6167	3.043857	-4.992115	0.000000	37.819	0.000000	1.170320
	57.6333	3.045261	-4.992115	0.000000	37.815	0.000000	1.170320
	57.65	3.046548	-4.992115	0.000000	37.813	0.000000	1.170320
	57.6667	3.047836	-4.992115	0.000000	37.805	0.000000	1.170320
	57.6833	3.049006	-4.992115	0.000000	37.805	0.000000	1.170320
	57.7	3.050176	-4.992115	0.000000	37.801	0.000000	1.170320
	57.7167	3.051347	-4.992115	0.000000	37.797	0.000000	1.170320
	57.7333	3.052517	-4.992115	0.000000	37.793	0.000000	1.170320
	57.75	3.053336	-4.992115	0.000000	37.789	0.000000	1.170320
	57.7667	3.054389	-4.992115	0.000000	37.786	0.000000	1.170320
	57.7833	3.055209	-4.992115	0.000000	37.784	0.000000	1.170320
	57.8	3.056145	-4.992115	0.000000	37.78	0.000000	1.170320
	57.8167	3.056964	-4.992115	0.000000	37.777	0.000000	1.170320
	57.8333	3.057783	-4.992115	0.000000	37.775	0.000000	1.170320
	57.85	3.058603	-4.992115	0.000000	37.773	0.000000	1.170320
	57.8667	3.059305	-4.992115	0.000000	37.771	0.000000	1.170320
	57.8833	3.060124	-4.992115	0.000000	37.763	0.000000	1.170320
	57.9	3.060826	-4.992115	0.000000	37.764	0.000000	1.170320
	57.9167	3.061528	-4.992115	0.000000	37.757	0.000000	1.170320
	57.9333	3.062231	-4.992115	0.000000	37.751	0.000000	1.170320
	57.95	3.062933	-4.992115	0.000000	37.753	0.000000	1.170320
	57.9667	3.063635	-4.992115	0.000000	37.75	0.000000	1.170320

	DIAMOND DSC AUTOTUNE CALIBRATION VALUES:
Date:	2/2/2018 9:20:14 AM
Slope: 47
Coarse Balance: 0
Fine Balance: 50
Starting Temperature: -150.0 °C
Ending Temperature: 200.0 °C
Scan Rate: 20.0 °C/min

	DIAMOND DSC SAMPLE TEMPERATURE CALIBRATION VALUES:
Reference	Expected (°C)	Measured (°C)	Method
Indium          	   156.600	   156.860

NEWPAGE

	DIAMOND DSC FURNACE TEMPERATURE CALIBRATION VALUES:
Minimum	-170.000 °C
Maximum	 270.000 °C

	FURNACE CALIBRATION COMPUTED RESULTS:
Date:	2/6/2023 11:07:55 AM
Setpoints (°C)	Boundaries (°C)	y''
-170.000		-172.314	0
-115.000		-124.043	-0.0012001
 -60.000		 -73.970	-0.00019932
  -5.000		 -22.998	-0.00031121
  50.000		  28.607	-0.00010478
 105.000		  80.429	0.00021143
 160.000		 131.897	0.00010788
 215.000		 183.051	0.00012381
 270.000		 233.962	0

	DIAMOND DSC HEAT FLOW CALIBRATION VALUES:
Reference	Temperature (°C)	Expected (W/g)	Measured (W/g)
Indium          	 160.600	  28.450	   24.310
DIAMOND HEAT FLOW CALIBRATION COMPUTED RESULTS:
Date:	1/27/2023 9:11:36 AM
K(Ts) = (0)Ts^3 + (0)Ts^2 + (0)Ts + (1.1703)

	PROFILE VALUES FOR THIS DATA:

Software Version	8.0.0.0172
Firmware Version	Part Number N5368010  Revision 0.01:.
Instrument Serial Number	536N7042301
Load Temperature	25.0 °C
Go To Temp Rate	200.0 °C/min
Maximum Allowed Temperature	300.0 °C
Helium Purge	Was Used
Liquid Nitrogen	Was Used
Data taken using the	Normal Range
Filter Factor	3
Lag Compensation	0
Cooling Device	CryoFill
Filter Algorithm: Adaptive Boxcar